aX,aY,aZ,gX,gY,gZ
0.071,0.330,0.879,7.446,-5.859,-51.208
0.057,0.364,0.889,-1.526,6.042,17.090
0.052,0.368,0.890,-0.977,4.211,14.038
0.055,0.365,0.892,1.099,0.977,1.343
0.058,0.361,0.889,1.404,0.244,-0.671
0.055,0.359,0.888,1.343,0.427,-0.977
0.049,0.356,0.888,0.977,0.549,-1.160
0.051,0.353,0.890,0.793,0.549,-0.427
0.054,0.354,0.888,1.282,0.427,0.305
0.054,0.353,0.886,1.221,0.305,0.244
0.052,0.357,0.890,0.793,0.244,-0.122
0.052,0.358,0.895,0.305,0.427,0.244
0.053,0.360,0.898,0.183,0.732,0.549
0.054,0.361,0.897,0.488,0.854,0.793
0.059,0.367,0.898,0.671,0.427,0.977
0.058,0.368,0.904,0.916,0.366,0.671
0.057,0.368,0.903,0.977,0.671,0.061
0.059,0.369,0.898,1.282,1.282,0.061
0.059,0.370,0.894,1.587,1.221,-0.122
0.057,0.366,0.889,1.587,0.854,-0.366
0.054,0.361,0.889,1.343,0.427,-0.671
0.052,0.355,0.891,0.671,0.366,-0.671
0.052,0.351,0.891,0.122,0.671,-0.427
0.048,0.352,0.888,-0.061,0.732,-0.549
0.047,0.356,0.888,-0.061,0.793,-0.183
0.053,0.359,0.891,0.061,0.305,0.427
0.056,0.363,0.896,0.122,-0.061,0.854
0.057,0.369,0.899,0.305,0.061,0.793
0.057,0.371,0.901,0.610,0.488,0.610
0.056,0.375,0.905,0.671,0.977,0.977
0.058,0.378,0.912,1.282,0.732,1.465
0.061,0.380,0.919,1.709,0.427,1.526
0.065,0.380,0.922,2.380,0.610,1.465
0.065,0.380,0.923,3.052,1.465,1.099
0.063,0.378,0.920,3.540,2.197,0.244
0.059,0.375,0.920,3.967,2.502,0.061
0.055,0.372,0.920,4.761,2.441,0.549
0.056,0.373,0.919,5.493,2.197,0.671
0.057,0.373,0.921,6.226,2.136,0.916
0.056,0.370,0.921,7.446,2.014,0.732
0.054,0.367,0.919,8.667,1.892,0.305
0.057,0.365,0.920,9.766,1.892,0.305
0.052,0.363,0.916,10.376,2.563,0.854
0.061,0.358,0.915,10.620,2.869,0.793
0.055,0.360,0.906,11.169,2.258,0.305
0.061,0.353,0.911,11.841,1.587,0.366
0.064,0.355,0.910,12.512,1.404,0.244
0.062,0.361,0.909,13.855,1.099,-0.305
0.064,0.363,0.909,14.832,0.183,-0.427
0.073,0.363,0.909,14.954,-0.671,-0.732
0.077,0.356,0.909,14.709,-1.099,-1.099
0.074,0.354,0.902,14.221,-0.732,-1.587
0.068,0.349,0.902,13.489,0.122,-2.136
0.071,0.338,0.879,12.085,0.671,-2.319
0.056,0.343,0.880,12.146,1.099,-2.075
0.061,0.333,0.872,10.315,1.343,-2.075
0.058,0.317,0.864,8.118,1.282,-2.258
0.053,0.314,0.854,7.263,1.709,-2.258
0.053,0.310,0.852,5.737,1.709,-1.831
0.053,0.303,0.853,3.906,1.099,-1.526
0.055,0.297,0.852,2.747,1.160,-0.977
0.052,0.299,0.850,1.892,1.343,-0.671
0.048,0.303,0.850,0.793,0.977,-0.366
0.049,0.307,0.862,-0.610,0.122,0.122
0.060,0.302,0.870,-2.014,-0.610,0.732
0.053,0.312,0.879,-2.991,-1.404,0.977
0.055,0.319,0.888,-4.028,-0.366,1.160
0.056,0.325,0.899,-4.822,-0.122,1.160
0.060,0.334,0.912,-5.005,-0.244,1.221
0.061,0.340,0.925,-4.639,-0.244,1.282
0.065,0.346,0.935,-3.845,-0.183,1.160
0.065,0.348,0.938,-2.869,0.183,1.038
0.066,0.352,0.940,-1.221,0.427,1.038
0.069,0.352,0.941,0.122,0.732,0.916
0.070,0.351,0.942,1.160,1.160,0.366
0.066,0.347,0.940,2.014,1.404,-0.366
0.065,0.342,0.934,2.747,1.648,-0.610
0.062,0.340,0.924,3.418,1.770,-1.038
0.060,0.337,0.916,3.967,1.770,-1.038
0.058,0.332,0.906,4.150,1.709,-1.038
0.055,0.329,0.899,4.028,1.404,-0.977
0.052,0.329,0.896,3.235,1.099,-0.854
0.050,0.327,0.897,2.686,0.854,-0.305
0.048,0.326,0.895,2.319,0.671,0.305
0.049,0.325,0.897,2.075,0.610,1.160
0.052,0.323,0.902,2.319,0.000,2.014
0.057,0.323,0.904,2.747,-0.793,2.686
0.059,0.328,0.905,3.174,-1.343,2.930
0.059,0.331,0.907,3.357,-1.099,2.502
0.061,0.332,0.906,2.502,-0.977,2.075
0.063,0.335,0.909,1.770,-0.549,2.136
0.061,0.335,0.914,1.221,-0.305,1.648
0.056,0.336,0.918,0.793,-0.244,1.404
0.057,0.337,0.921,1.221,0.061,1.770
0.061,0.333,0.919,2.075,0.061,2.014
0.062,0.332,0.915,3.174,-0.366,1.465
0.062,0.333,0.908,3.845,-0.793,1.282
0.060,0.331,0.906,3.601,-1.221,1.038
0.055,0.328,0.904,3.113,-1.160,0.671
0.053,0.326,0.901,2.686,-0.793,0.610
0.054,0.325,0.899,2.136,-0.793,0.916
0.055,0.323,0.895,1.953,-1.282,0.793
0.053,0.324,0.892,1.465,-1.648,0.916
0.053,0.326,0.893,0.793,-1.892,0.854
0.052,0.328,0.896,-0.366,-1.709,0.732
0.054,0.332,0.899,-1.526,-1.160,0.977
0.060,0.335,0.903,-2.197,-1.038,1.038
0.060,0.338,0.907,-2.686,-1.099,0.671
0.058,0.338,0.914,-3.052,-1.038,0.427
0.058,0.337,0.916,-2.808,-0.610,0.488
0.057,0.338,0.917,-2.014,-0.366,0.671
0.056,0.338,0.916,-1.343,-0.061,0.793
0.057,0.337,0.918,-0.977,0.122,0.732
0.054,0.337,0.921,-0.916,0.000,0.488
0.051,0.336,0.923,-0.977,0.183,0.244
0.052,0.335,0.922,-0.488,0.977,0.732
0.051,0.332,0.919,-0.061,1.404,0.854
0.052,0.330,0.914,0.732,1.587,0.549
0.050,0.329,0.911,1.282,1.099,0.610

-0.409,1.678,0.740,-160.034,-4.944,75.378
-0.259,1.740,0.861,-163.696,13.245,94.055
-0.080,1.732,0.884,-154.419,39.307,105.042
0.115,1.698,0.891,-133.911,61.646,102.417
0.187,1.660,0.844,-103.943,71.228,87.158
0.187,1.608,0.785,-71.838,65.369,61.646
0.160,1.498,0.733,-43.152,53.467,34.546
0.127,1.370,0.664,-21.729,45.715,12.878
0.104,1.260,0.599,-6.897,42.725,-2.197
0.052,1.123,0.537,3.479,36.194,-14.832
0.042,0.949,0.501,11.597,24.597,-26.550
-0.011,0.818,0.502,17.456,9.827,-34.424
-0.073,0.679,0.525,21.973,-5.188,-38.147
-0.187,0.629,0.547,24.109,-16.541,-38.086
-0.183,0.597,0.594,24.536,-20.996,-33.447
-0.231,0.619,0.652,24.658,-27.893,-27.954
-0.233,0.638,0.697,26.672,-32.104,-24.292
-0.245,0.656,0.757,29.541,-31.494,-20.569
-0.221,0.678,0.789,33.142,-25.391,-15.991
-0.204,0.673,0.778,36.011,-16.235,-12.268
-0.143,0.654,0.774,37.415,-5.127,-11.230
-0.117,0.646,0.755,36.438,4.700,-13.855
-0.080,0.656,0.762,33.081,12.268,-20.386
-0.117,0.663,0.731,28.015,13.916,-28.931
-0.051,0.612,0.761,23.315,13.550,-36.316
-0.122,0.566,0.754,18.616,9.705,-39.612
-0.099,0.529,0.770,14.526,5.737,-42.114
-0.092,0.497,0.783,11.536,4.639,-41.321
-0.085,0.444,0.802,7.385,1.648,-40.344
-0.074,0.393,0.831,3.052,-0.854,-39.917
-0.007,0.369,0.859,-1.099,-0.366,-39.124
0.025,0.369,0.878,-4.822,-0.977,-38.391
0.018,0.342,0.892,-7.202,-1.953,-38.818
0.078,0.293,0.947,-8.728,0.488,-41.199
0.092,0.249,0.975,-11.414,1.221,-45.410
0.022,0.232,0.985,-14.709,-0.549,-49.194
0.024,0.200,1.028,-18.188,2.014,-50.171
0.069,0.153,1.060,-22.644,2.930,-49.133
0.027,0.151,1.051,-26.367,2.380,-46.875
0.027,0.123,1.073,-28.503,4.761,-42.236
0.096,0.122,1.113,-29.480,4.456,-37.109
0.102,0.120,1.134,-28.564,1.099,-33.752
0.181,0.080,1.188,-23.865,-0.183,-32.654
0.175,0.073,1.206,-17.944,-3.235,-33.752
0.194,0.063,1.230,-11.353,-3.967,-35.217
0.157,0.016,1.229,-5.005,-5.005,-34.363
0.142,-0.003,1.230,3.174,-0.916,-33.630
0.161,-0.025,1.212,11.536,8.240,-33.020
0.175,-0.056,1.187,17.578,13.306,-32.349
0.138,-0.066,1.149,21.545,12.207,-32.043
0.125,-0.089,1.115,23.926,11.475,-31.555
0.121,-0.121,1.087,25.696,13.550,-28.992
0.113,-0.112,1.063,25.879,16.174,-26.245
0.116,-0.114,1.039,25.330,18.860,-23.071
0.119,-0.102,1.031,24.902,21.179,-19.531
0.133,-0.079,1.021,25.330,22.217,-15.198
0.163,-0.066,1.021,27.588,21.729,-10.620
0.190,-0.046,1.018,31.616,21.118,-6.775
0.201,-0.036,1.008,35.339,19.714,-4.578
0.212,-0.041,1.000,36.560,17.761,-3.662
0.225,-0.060,0.994,36.194,15.930,-3.540
0.216,-0.071,0.988,34.485,15.503,-4.395
0.195,-0.082,0.976,31.006,15.869,-6.409
0.178,-0.089,0.970,26.245,17.395,-6.958
0.167,-0.091,0.969,20.508,18.005,-6.104
0.161,-0.090,0.972,14.893,17.273,-4.761
0.157,-0.084,0.979,10.132,15.564,-3.357
0.156,-0.081,0.979,6.226,13.977,-1.465
0.160,-0.078,0.977,2.502,13.550,0.549
0.162,-0.074,0.974,0.000,13.367,2.686
0.160,-0.050,0.977,-0.549,12.512,4.761
0.159,-0.024,0.981,0.793,10.803,7.080
0.170,0.007,0.981,4.089,8.545,9.338
0.182,0.047,0.982,8.240,5.615,11.841
0.192,0.095,0.982,12.573,2.380,13.916
0.206,0.137,0.975,16.418,0.061,15.137
0.224,0.166,0.965,19.470,-0.244,14.954
0.250,0.195,0.960,20.081,1.160,12.756
0.246,0.221,0.949,17.944,0.793,9.888
0.242,0.235,0.943,14.465,0.244,5.737
0.234,0.243,0.934,10.681,1.953,1.465
0.231,0.238,0.930,6.775,5.066,-1.648
0.219,0.230,0.926,3.296,6.958,-4.456
0.204,0.205,0.927,0.427,7.446,-7.202
0.182,0.186,0.929,-1.099,7.080,-9.155
0.168,0.168,0.933,-0.977,6.592,-9.644
0.153,0.156,0.941,-0.305,5.493,-9.338
0.144,0.145,0.948,0.916,4.456,-8.057
0.137,0.138,0.947,2.380,3.723,-6.165
0.126,0.130,0.949,3.967,2.686,-4.395
0.126,0.134,0.948,5.371,1.648,-3.540
0.119,0.141,0.945,6.531,0.916,-2.991
0.128,0.142,0.942,7.080,0.793,-1.770
0.136,0.148,0.941,7.141,1.099,-0.427
0.146,0.145,0.940,6.287,0.671,-0.061
0.145,0.139,0.934,4.822,0.671,-0.305
0.131,0.139,0.929,3.296,2.197,-1.038
0.126,0.126,0.924,1.526,3.845,-0.854
0.135,0.122,0.922,-0.305,4.333,0.183
0.126,0.137,0.924,-0.916,2.686,2.197
0.140,0.142,0.921,0.000,-0.366,4.761
0.155,0.156,0.930,1.526,-3.235,6.714
0.143,0.181,0.928,2.930,-4.578,7.568
0.159,0.183,0.931,3.723,-2.686,8.057
0.187,0.186,0.931,3.662,1.770,7.935
0.199,0.191,0.925,2.686,2.808,7.263
0.190,0.196,0.928,2.197,0.854,5.676
0.176,0.192,0.929,1.953,0.122,4.272
0.176,0.175,0.928,1.343,0.671,3.845
0.179,0.170,0.930,0.977,1.526,3.540
0.178,0.173,0.935,0.427,1.099,3.479
0.170,0.178,0.941,0.000,-0.183,3.418
0.171,0.172,0.948,-0.793,-0.977,3.662
0.179,0.162,0.951,-1.770,-0.732,3.357
0.183,0.158,0.951,-2.319,0.000,2.747
0.181,0.153,0.951,-2.319,0.732,1.648
0.178,0.146,0.949,-2.197,1.465,0.732
0.169,0.151,0.950,-2.197,1.526,0.427
0.159,0.159,0.959,-1.648,1.221,0.916

-0.864,1.620,0.322,-143.066,7.751,175.293
-0.742,1.888,0.369,-166.138,38.269,176.331
-0.525,2.125,0.453,-189.697,65.857,168.823
-0.318,2.222,0.534,-203.857,86.487,155.212
-0.088,2.261,0.620,-209.839,109.863,131.409
0.112,2.232,0.701,-211.365,136.108,100.830
0.245,2.158,0.715,-201.538,153.503,65.247
0.356,2.030,0.718,-176.575,156.311,27.588
0.386,1.881,0.660,-137.634,144.104,-5.737
0.320,1.749,0.577,-91.248,122.925,-35.522
0.227,1.609,0.494,-47.180,100.769,-60.425
0.102,1.471,0.448,-13.672,77.209,-77.942
-0.012,1.324,0.443,7.690,53.162,-87.524
-0.118,1.201,0.452,21.484,32.654,-90.271
-0.200,1.118,0.478,30.701,18.738,-87.158
-0.246,1.032,0.510,35.828,7.629,-80.811
-0.238,0.969,0.560,39.795,3.113,-75.317
-0.235,0.923,0.587,41.687,-3.784,-68.542
-0.238,0.881,0.625,43.030,-12.146,-60.974
-0.237,0.835,0.689,46.570,-18.677,-56.396
-0.238,0.808,0.731,50.781,-25.452,-53.406
-0.238,0.781,0.757,54.199,-29.053,-50.903
-0.222,0.732,0.786,56.763,-29.114,-48.462
-0.205,0.668,0.809,57.861,-25.879,-46.204
-0.175,0.638,0.815,56.641,-22.156,-46.509
-0.159,0.620,0.837,54.565,-18.188,-47.729
-0.152,0.573,0.847,53.589,-16.418,-48.218
-0.151,0.541,0.857,53.162,-15.991,-48.340
-0.147,0.523,0.863,53.101,-15.381,-46.570
-0.132,0.497,0.862,52.856,-15.442,-43.396
-0.078,0.442,0.884,52.246,-14.282,-38.818
-0.050,0.404,0.900,50.232,-13.611,-34.485
-0.015,0.394,0.914,47.424,-12.451,-31.677
0.193,0.374,1.042,44.678,-11.475,-30.823
-0.023,0.361,0.914,40.527,-26.550,-32.043
0.005,0.314,0.983,41.504,-19.958,-33.508
0.060,0.253,0.969,42.175,7.874,-25.085
0.142,0.183,0.979,35.889,25.330,-22.034
0.164,0.171,0.964,29.541,28.442,-23.804
0.136,0.174,0.932,24.475,24.475,-23.987
0.147,0.134,0.938,22.034,19.348,-23.621
0.146,0.107,0.941,21.057,12.573,-25.146
0.131,0.087,0.931,19.165,5.432,-26.428
0.127,0.071,0.916,18.433,2.563,-24.780
0.140,0.065,0.907,19.043,3.418,-20.630
0.170,0.056,0.908,19.897,3.662,-16.418
0.199,0.043,0.922,19.714,2.136,-13.428
0.209,0.070,0.931,18.250,-1.587,-13.245
0.208,0.080,0.954,17.639,-4.578,-13.245
0.204,0.104,0.970,16.602,-7.019,-13.794
0.195,0.096,0.990,14.404,-7.263,-14.221
0.198,0.069,0.997,11.414,-5.371,-15.625
0.185,0.051,1.001,8.118,-1.953,-18.860
0.179,0.059,1.000,5.066,3.601,-23.010
0.164,0.057,0.990,4.150,8.423,-26.367
0.148,0.050,0.982,4.883,11.658,-29.114
0.159,0.051,0.998,6.714,13.428,-30.823
0.111,0.049,0.968,8.179,12.939,-30.396
0.142,0.048,0.977,12.329,14.465,-30.090
0.136,0.040,0.979,16.541,13.000,-27.466
0.130,0.032,0.974,20.691,10.132,-24.475
0.129,0.023,0.972,24.353,8.667,-23.132
0.119,0.019,0.960,26.489,8.972,-23.743
0.116,0.023,0.952,27.100,9.705,-25.085
0.110,0.018,0.946,25.940,10.254,-26.306
0.083,0.028,0.935,23.132,11.169,-27.893
0.077,0.035,0.930,20.386,12.451,-27.100
0.077,0.035,0.930,19.714,13.367,-23.926
0.072,0.033,0.928,19.165,12.695,-20.203
0.068,0.044,0.938,16.846,10.925,-16.479
0.083,0.046,0.948,14.404,8.484,-12.512
0.089,0.052,0.961,13.550,6.409,-8.728
0.093,0.070,0.967,13.550,5.066,-5.798
0.103,0.076,0.974,13.611,4.150,-3.845
0.109,0.086,0.978,13.489,2.747,-2.808
0.114,0.094,0.975,12.939,2.075,-2.014
0.118,0.106,0.970,13.184,1.587,-1.770
0.130,0.109,0.972,13.245,1.221,-2.441
0.121,0.114,0.966,12.329,1.099,-3.723
0.116,0.115,0.966,10.498,1.831,-5.676
0.102,0.119,0.970,8.179,3.723,-7.568
0.084,0.140,0.975,5.615,6.409,-8.728
0.084,0.136,0.983,3.723,9.766,-7.874
0.092,0.125,0.983,2.991,12.268,-5.737
0.104,0.119,0.985,3.113,14.221,-4.333
0.121,0.101,0.991,4.211,15.198,-3.845
0.135,0.080,0.999,5.371,15.076,-4.272
0.144,0.071,1.001,7.141,14.709,-5.188
0.147,0.069,1.005,9.399,14.648,-6.409
0.148,0.051,1.006,11.597,14.771,-7.690
0.142,0.041,1.003,13.123,15.503,-8.606
0.141,0.022,1.001,14.099,17.212,-8.423
0.141,0.012,0.992,13.977,18.005,-8.057
0.143,0.000,0.989,12.878,17.944,-7.568
0.145,-0.015,0.979,11.536,17.273,-6.287
0.139,-0.027,0.979,10.437,16.846,-4.761
0.139,-0.036,0.972,8.118,16.846,-3.479
0.143,-0.042,0.968,5.920,16.113,-2.014
0.149,-0.050,0.970,5.005,14.832,0.122
0.145,-0.041,0.966,3.967,13.428,2.319
0.142,-0.043,0.962,2.441,11.963,4.761
0.146,-0.030,0.974,0.183,9.583,8.118
0.161,-0.014,0.981,-0.854,7.141,11.780
0.173,0.017,0.983,-0.305,4.822,15.442
0.185,0.050,0.988,0.732,2.136,18.066
0.202,0.076,0.995,1.953,-0.854,19.836
0.213,0.103,1.000,2.686,-3.418,20.508
0.219,0.138,1.000,3.296,-4.761,19.958
0.224,0.160,1.000,3.540,-5.249,18.494
0.223,0.174,0.998,4.028,-5.493,17.639
0.237,0.198,0.995,5.005,-4.761,15.991
0.243,0.220,0.982,6.470,-4.272,14.038
0.240,0.231,0.966,7.690,-3.906,11.597
0.241,0.228,0.956,8.240,-4.028,9.949
0.244,0.219,0.941,8.423,-3.601,7.446
0.247,0.206,0.933,8.057,-2.136,4.700
0.241,0.184,0.919,6.409,-0.488,1.648
0.227,0.167,0.910,4.028,0.793,-0.854
0.211,0.149,0.900,2.014,1.221,-2.869

-0.735,1.471,0.543,-75.623,-23.621,124.451
-0.614,1.612,0.595,-96.069,-12.634,122.131
-0.517,1.694,0.682,-111.755,3.235,119.141
-0.310,1.713,0.764,-117.432,21.667,110.107
-0.182,1.676,0.790,-110.352,34.302,96.252
0.006,1.613,0.824,-91.736,44.312,76.233
0.036,1.538,0.755,-66.528,44.434,50.842
0.054,1.443,0.683,-38.208,39.795,21.851
0.002,1.343,0.609,-13.672,33.142,-2.869
-0.077,1.254,0.563,4.150,23.865,-21.973
-0.158,1.146,0.543,14.832,13.794,-35.278
-0.183,1.035,0.581,17.761,7.507,-42.175
-0.208,0.947,0.624,14.282,5.615,-44.128
-0.211,0.895,0.681,9.888,6.531,-46.814
-0.232,0.856,0.724,7.019,6.714,-49.194
-0.216,0.810,0.750,6.287,5.554,-51.331
-0.210,0.764,0.783,8.362,5.920,-52.856
-0.208,0.738,0.798,11.597,5.554,-53.528
-0.225,0.714,0.818,14.282,3.662,-53.345
-0.227,0.671,0.832,16.602,2.319,-52.490
-0.225,0.655,0.860,19.348,2.380,-52.124
-0.231,0.647,0.866,21.301,1.221,-50.476
-0.202,0.619,0.874,23.376,0.977,-48.889
-0.198,0.578,0.871,26.123,1.404,-47.302
-0.155,0.556,0.875,28.870,2.747,-45.837
-0.127,0.530,0.881,30.884,4.639,-43.518
-0.108,0.511,0.867,32.288,5.920,-41.138
-0.064,0.486,0.867,33.203,6.714,-38.818
-0.029,0.467,0.886,32.654,6.470,-37.231
-0.022,0.443,0.901,30.701,5.859,-37.476
-0.012,0.425,0.913,28.076,6.470,-37.842
-0.004,0.415,0.906,26.062,9.399,-36.865
0.038,0.400,0.913,24.292,13.672,-34.668
0.073,0.361,0.902,22.583,15.015,-31.616
0.107,0.319,0.899,22.339,14.343,-29.602
0.123,0.296,0.888,22.583,13.000,-28.320
0.126,0.294,0.882,23.071,10.803,-27.039
0.150,0.279,0.885,23.071,7.324,-26.062
0.304,0.253,0.973,21.545,1.526,-24.658
0.110,0.256,0.846,18.188,-16.418,-22.400
0.140,0.242,0.958,19.409,-12.756,-22.949
0.177,0.204,0.925,21.057,5.005,-20.142
0.214,0.213,0.945,14.832,12.512,-19.165
0.232,0.203,0.929,8.240,9.644,-18.677
0.255,0.166,0.934,4.028,6.470,-18.860
0.246,0.143,0.934,2.686,4.700,-21.973
0.233,0.147,0.933,3.357,2.441,-26.245
0.201,0.163,0.927,5.920,-0.854,-27.771
0.193,0.141,0.914,8.728,-2.502,-27.649
0.182,0.143,0.911,9.949,-1.709,-27.649
0.172,0.138,0.903,9.949,-1.282,-27.710
0.195,0.094,0.910,8.972,-1.221,-26.733
0.192,0.090,0.925,7.690,-1.831,-26.367
0.179,0.099,0.918,7.385,-3.174,-25.452
0.202,0.087,0.936,9.155,-2.808,-24.048
0.181,0.107,0.941,11.414,-3.174,-24.109
0.171,0.110,0.937,12.268,-4.822,-25.085
0.161,0.105,0.954,10.620,-6.470,-25.391
0.140,0.103,0.965,6.958,-8.179,-27.039
0.120,0.088,0.983,3.479,-7.812,-27.954
0.108,0.084,0.989,1.038,-4.822,-27.283
0.104,0.103,1.003,0.122,-1.282,-26.184
0.100,0.110,1.007,-0.122,1.160,-24.597
0.112,0.128,1.026,1.465,1.892,-22.827
0.124,0.127,1.039,4.883,0.427,-20.996
0.126,0.129,1.051,8.911,-2.197,-19.348
0.126,0.134,1.056,12.268,-4.150,-17.883
0.129,0.125,1.051,14.587,-4.517,-16.785
0.137,0.097,1.043,16.113,-3.235,-16.968
0.135,0.091,1.033,16.296,-0.427,-18.372
0.139,0.074,1.024,14.893,3.235,-19.775
0.146,0.049,1.019,12.512,5.737,-20.630
0.130,0.045,1.011,9.949,7.263,-21.301
0.121,0.036,1.006,7.507,8.850,-21.057
0.115,0.014,1.002,6.409,10.254,-19.836
0.097,0.024,0.994,6.653,11.230,-17.822
0.097,0.019,0.975,8.179,11.108,-14.771
0.132,0.012,0.979,10.498,10.925,-11.414
0.095,0.007,0.957,12.024,9.827,-8.728
0.124,0.025,0.967,13.245,7.996,-8.057
0.117,0.035,0.953,13.855,7.019,-6.287
0.110,0.049,0.948,13.855,4.883,-3.418
0.115,0.056,0.948,14.343,3.906,-1.648
0.134,0.065,0.935,14.587,5.859,0.122
0.141,0.075,0.923,13.428,6.104,1.770
0.165,0.087,0.930,11.230,4.150,2.014
0.177,0.086,0.936,7.751,2.014,0.671
0.174,0.093,0.938,3.418,1.038,-0.854
0.162,0.105,0.950,-1.404,0.793,-2.625
0.146,0.122,0.963,-6.287,1.770,-4.333
0.126,0.134,0.977,-10.864,2.502,-5.310
0.130,0.149,0.996,-13.855,2.747,-5.371
0.138,0.161,1.013,-14.709,1.953,-4.639
0.139,0.169,1.028,-13.977,0.244,-3.479
0.158,0.172,1.042,-11.414,0.000,-2.197
0.158,0.181,1.042,-8.423,0.366,-1.831
0.158,0.188,1.042,-4.883,1.282,-2.319
0.154,0.184,1.025,-1.587,3.357,-2.563
0.163,0.173,1.006,0.610,5.310,-2.563
0.151,0.181,0.990,2.380,6.287,-3.174
0.140,0.196,0.975,3.601,6.348,-3.174
0.145,0.198,0.963,4.150,6.470,-2.625
0.154,0.197,0.953,3.906,6.531,-1.831
0.151,0.209,0.945,3.174,5.493,-1.770
0.153,0.218,0.937,2.991,4.761,-1.648
0.151,0.218,0.932,2.991,3.967,-1.221
0.159,0.225,0.927,2.930,3.540,-0.977
0.156,0.246,0.930,2.991,2.930,-0.916
0.162,0.246,0.932,2.991,1.953,-0.671
0.172,0.243,0.933,2.930,2.319,-0.671
0.178,0.245,0.933,2.502,3.357,-1.831
0.172,0.253,0.933,1.892,4.028,-3.357
0.165,0.250,0.929,1.526,4.639,-4.578
0.160,0.239,0.925,0.610,5.066,-5.615
0.156,0.233,0.922,-0.427,5.188,-6.531
0.153,0.230,0.917,-0.916,5.371,-7.385
0.154,0.222,0.914,-0.549,5.066,-7.629
0.149,0.213,0.906,-0.732,4.272,-7.935
0.149,0.206,0.902,-1.587,3.723,-7.935

-0.606,1.215,0.901,-82.397,-26.367,105.469
-0.483,1.297,0.987,-100.647,-10.864,106.445
-0.314,1.352,1.038,-106.567,3.784,97.229
-0.187,1.374,1.049,-103.577,15.686,78.552
-0.093,1.354,1.027,-96.802,29.114,52.734
-0.058,1.304,0.968,-88.684,41.626,24.536
-0.050,1.217,0.901,-79.163,51.514,-4.150
-0.089,1.111,0.835,-68.665,56.763,-28.625
-0.141,0.998,0.786,-58.777,54.321,-46.936
-0.172,0.872,0.768,-49.500,47.058,-56.396
-0.209,0.763,0.774,-40.771,36.621,-58.960
-0.216,0.678,0.810,-32.410,27.893,-55.969
-0.190,0.597,0.825,-23.437,23.499,-47.913
-0.106,0.509,0.874,-14.343,24.414,-38.879
-0.068,0.468,0.899,-6.653,23.193,-33.142
-0.025,0.437,0.907,0.366,19.592,-30.029
-0.023,0.448,0.923,5.310,16.907,-28.687
-0.032,0.455,0.921,7.935,10.132,-28.748
-0.037,0.459,0.919,10.437,5.676,-28.259
-0.053,0.474,0.928,11.536,3.357,-27.161
-0.052,0.497,0.926,10.437,1.465,-25.879
-0.030,0.506,0.925,10.071,3.357,-24.597
-0.002,0.514,0.926,9.888,4.639,-24.902
0.013,0.517,0.920,9.338,5.615,-26.062
0.038,0.511,0.927,8.911,6.958,-28.809
0.045,0.486,0.925,8.301,6.897,-32.715
0.045,0.464,0.917,7.507,8.179,-35.461
0.061,0.435,0.917,7.324,11.841,-35.889
0.062,0.406,0.900,8.118,14.221,-35.034
0.084,0.394,0.879,10.315,15.076,-33.630
0.108,0.379,0.852,13.428,14.771,-32.654
0.114,0.375,0.835,16.296,11.597,-31.372
0.154,0.334,0.826,18.433,7.751,-29.968
0.171,0.297,0.816,19.897,4.639,-30.029
0.161,0.279,0.802,20.142,2.502,-31.006
0.146,0.272,0.796,18.372,1.038,-30.640
0.167,0.258,0.808,14.648,-1.160,-28.381
0.180,0.235,0.821,10.376,-4.639,-25.940
0.182,0.241,0.842,7.690,-7.263,-25.818
0.190,0.229,0.859,5.432,-9.033,-26.550
0.193,0.206,0.880,2.686,-10.193,-26.611
0.208,0.182,0.901,-0.977,-10.437,-25.757
0.207,0.188,0.920,-5.188,-10.254,-25.940
0.203,0.181,0.957,-8.057,-9.521,-26.733
0.198,0.154,0.965,-9.216,-8.850,-26.489
0.346,0.130,1.036,-9.460,-7.690,-25.085
0.153,0.143,0.949,-8.911,-16.968,-22.827
0.223,0.123,1.028,-3.906,-9.094,-23.193
0.227,0.120,0.986,0.854,4.150,-20.386
0.237,0.110,0.983,1.099,3.906,-19.409
0.214,0.112,0.974,0.916,-3.235,-17.822
0.213,0.097,0.979,1.526,-7.324,-17.212
0.217,0.073,0.987,4.089,-9.033,-17.273
0.217,0.063,0.984,5.310,-10.681,-17.395
0.218,0.039,0.978,3.601,-10.315,-18.066
0.211,0.030,0.980,-0.183,-6.287,-19.348
0.198,0.032,0.982,-4.944,-1.770,-20.508
0.195,0.032,0.981,-9.521,0.916,-20.691
0.199,0.035,0.979,-11.597,1.038,-18.677
0.203,0.039,0.980,-9.827,0.549,-15.564
0.217,0.036,0.989,-6.042,-1.343,-11.841
0.215,0.056,0.992,-2.686,-5.188,-9.033
0.220,0.071,0.994,0.488,-9.399,-6.836
0.216,0.085,0.995,3.357,-12.207,-5.798
0.209,0.104,0.988,5.127,-13.367,-5.920
0.201,0.108,0.983,4.700,-12.695,-6.531
0.191,0.101,0.975,3.052,-11.719,-7.324
0.192,0.092,0.971,0.122,-10.559,-8.118
0.171,0.105,0.978,-3.235,-8.423,-8.850
0.161,0.126,0.982,-6.165,-6.287,-9.277
0.169,0.128,0.992,-7.935,-5.188,-8.240
0.180,0.126,1.004,-8.545,-5.188,-7.446
0.173,0.135,1.013,-7.690,-4.822,-7.324
0.158,0.172,1.013,-5.188,-4.272,-7.446
0.161,0.172,1.011,-2.014,-3.540,-6.775
0.175,0.180,1.006,1.160,-2.319,-6.592
0.172,0.194,1.003,4.761,-0.977,-6.897
0.179,0.203,0.999,8.667,0.305,-7.507
0.172,0.224,0.988,13.000,1.221,-8.606
0.171,0.236,0.976,16.235,1.526,-9.766
0.176,0.231,0.967,18.250,1.953,-10.986
0.168,0.235,0.952,19.287,2.380,-12.085
0.177,0.214,0.945,17.883,2.075,-12.573
0.185,0.194,0.944,15.137,1.770,-14.221
0.176,0.181,0.939,11.780,2.136,-16.235
0.169,0.167,0.938,9.033,3.479,-18.250
0.151,0.163,0.937,6.897,5.188,-19.836
0.144,0.157,0.939,5.798,5.920,-20.020
0.136,0.165,0.941,5.676,5.859,-19.409
0.144,0.167,0.943,6.348,5.249,-17.822
0.147,0.175,0.944,7.324,4.517,-15.869
0.154,0.185,0.947,8.118,3.662,-14.343
0.161,0.197,0.950,9.033,2.869,-13.184
0.166,0.205,0.946,10.803,2.197,-12.268
0.182,0.208,0.949,12.512,1.648,-11.658
0.183,0.205,0.957,13.184,1.526,-12.207
0.179,0.201,0.960,12.756,2.319,-14.038
0.163,0.204,0.960,11.292,4.517,-16.113
0.153,0.202,0.964,9.705,7.019,-17.700
0.153,0.189,0.965,9.277,8.362,-18.250
0.152,0.178,0.963,9.277,9.033,-17.517
0.159,0.161,0.964,9.460,8.667,-16.479
0.160,0.138,0.955,9.827,7.385,-15.442
0.141,0.139,0.946,9.827,6.226,-14.404
0.152,0.123,0.948,8.850,6.531,-13.489
0.165,0.108,0.954,7.446,6.836,-12.268
0.175,0.101,0.952,6.348,7.385,-11.047
0.181,0.085,0.953,5.188,7.751,-10.254
0.179,0.077,0.957,3.967,7.751,-10.193
0.176,0.068,0.960,2.869,7.996,-10.315
0.171,0.062,0.959,2.258,8.545,-10.254
0.157,0.068,0.950,1.953,8.850,-9.338
0.159,0.070,0.946,1.770,8.972,-6.714
0.172,0.075,0.942,1.526,7.751,-3.784
0.191,0.079,0.942,2.197,5.554,-1.648
0.205,0.086,0.944,3.113,2.991,-0.061
0.216,0.086,0.946,2.991,0.488,0.427
0.215,0.085,0.949,1.343,-1.282,0.427
0.209,0.088,0.958,-1.099,-1.831,-0.183

-0.729,1.289,0.661,-40.894,-36.133,115.906
-0.747,1.491,0.670,-43.945,-36.133,118.347
-0.596,1.677,0.693,-48.340,-28.259,119.141
-0.546,1.819,0.701,-50.537,-24.292,116.150
-0.363,1.878,0.751,-47.913,-17.334,106.689
-0.209,1.880,0.769,-43.762,-9.888,93.018
-0.085,1.813,0.764,-34.363,-1.343,69.763
0.053,1.675,0.770,-22.827,9.155,41.443
0.089,1.472,0.719,-13.611,17.029,10.498
0.066,1.265,0.688,-8.606,20.508,-20.203
-0.008,1.051,0.669,-7.690,24.170,-46.753
-0.099,0.850,0.651,-10.925,23.193,-65.186
-0.178,0.705,0.643,-14.465,23.132,-73.608
-0.218,0.599,0.670,-17.273,26.245,-71.167
-0.214,0.538,0.703,-19.409,23.926,-63.293
-0.203,0.522,0.737,-17.761,15.930,-54.382
-0.169,0.511,0.767,-11.230,6.470,-44.006
-0.112,0.488,0.814,-2.441,-0.732,-35.339
-0.044,0.447,0.841,4.700,-7.080,-29.236
-0.009,0.417,0.871,9.399,-11.719,-26.489
-0.002,0.405,0.884,11.353,-12.146,-26.123
-0.023,0.411,0.903,11.414,-10.742,-26.367
-0.006,0.419,0.915,11.047,-7.446,-26.123
-0.015,0.417,0.919,11.353,-4.944,-25.330
-0.014,0.420,0.930,11.658,-3.540,-23.193
-0.000,0.416,0.934,12.207,-2.747,-19.836
0.032,0.408,0.929,13.550,-2.258,-15.564
0.050,0.411,0.925,15.564,-3.052,-12.329
0.082,0.403,0.926,17.578,-4.272,-10.437
0.111,0.387,0.913,18.188,-5.615,-9.338
0.127,0.376,0.921,18.311,-5.432,-8.606
0.154,0.381,0.917,17.029,-4.456,-9.033
0.163,0.369,0.917,16.174,-2.991,-9.216
0.167,0.349,0.902,17.273,-1.709,-8.362
0.181,0.340,0.885,19.897,-1.160,-6.836
0.204,0.307,0.866,23.499,-2.136,-5.310
0.201,0.314,0.852,26.245,-5.432,-4.639
0.218,0.303,0.857,28.015,-10.498,-3.967
0.222,0.268,0.856,27.100,-16.418,-4.089
0.215,0.273,0.872,22.949,-18.677,-6.287
0.198,0.289,0.892,16.724,-18.188,-8.362
0.227,0.258,0.911,9.399,-17.090,-9.460
0.244,0.248,0.929,2.625,-15.625,-11.169
0.229,0.253,0.937,-1.892,-12.817,-14.160
0.251,0.224,0.942,-3.723,-9.827,-16.174
0.263,0.187,0.943,-3.296,-7.996,-17.334
0.243,0.181,0.943,-2.075,-7.751,-19.470
0.216,0.171,0.941,-0.305,-8.240,-20.935
0.215,0.148,0.944,1.892,-7.141,-20.569
0.200,0.150,0.941,4.944,-5.310,-19.714
0.167,0.168,0.932,8.118,-4.883,-18.494
0.202,0.138,0.933,11.230,-5.066,-16.052
0.214,0.116,0.929,12.207,-6.104,-13.550
0.166,0.154,0.951,10.437,-11.597,-11.902
0.190,0.157,0.933,7.751,-19.165,-10.742
0.253,0.162,0.969,8.728,-5.798,-8.606
0.234,0.181,0.959,4.089,-1.404,-5.920
0.240,0.246,0.970,1.892,-1.587,-6.775
0.242,0.237,0.981,0.732,-2.319,-8.240
0.266,0.214,0.993,1.038,-1.953,-11.536
0.240,0.212,1.000,2.075,-1.526,-15.076
0.205,0.218,0.995,2.258,0.183,-18.372
0.184,0.201,0.991,2.319,3.601,-19.714
0.175,0.200,0.977,3.113,7.141,-18.921
0.171,0.193,0.963,4.578,9.216,-16.541
0.190,0.194,0.964,6.531,8.301,-13.794
0.179,0.207,0.949,8.423,5.005,-11.230
0.219,0.200,0.955,10.010,4.578,-9.216
0.224,0.214,0.951,10.559,5.615,-8.911
0.235,0.220,0.944,10.254,6.348,-9.521
0.255,0.210,0.943,9.521,7.751,-10.376
0.245,0.214,0.937,8.667,8.362,-11.963
0.247,0.208,0.944,7.507,8.240,-13.977
0.241,0.201,0.946,6.348,8.301,-15.442
0.214,0.205,0.936,5.066,8.423,-16.846
0.210,0.197,0.931,5.005,8.728,-17.700
0.214,0.183,0.931,5.920,7.935,-16.907
0.214,0.177,0.926,7.935,6.104,-15.869
0.218,0.179,0.924,9.460,4.944,-15.137
0.227,0.174,0.925,9.338,3.052,-13.855
0.220,0.181,0.932,8.545,1.160,-13.977
0.216,0.181,0.940,8.118,0.549,-15.076
0.201,0.180,0.943,6.958,0.427,-16.174
0.195,0.185,0.956,5.188,1.221,-17.456
0.178,0.173,0.953,3.357,2.136,-17.517
0.178,0.170,0.956,2.075,2.930,-16.052
0.182,0.183,0.963,1.892,3.235,-14.648
0.195,0.194,0.973,2.686,2.747,-13.489
0.203,0.192,0.977,3.662,1.343,-12.329
0.218,0.189,0.982,4.944,0.793,-12.024
0.218,0.195,0.979,5.920,1.648,-12.817
0.222,0.192,0.979,6.836,2.991,-13.550
0.216,0.173,0.970,7.019,4.639,-14.404
0.208,0.167,0.961,6.287,6.775,-15.442
0.209,0.156,0.958,5.676,8.118,-15.991
0.211,0.144,0.959,6.104,8.179,-15.747
0.205,0.142,0.949,7.141,8.057,-15.564
0.201,0.138,0.941,8.240,8.606,-14.221
0.215,0.136,0.938,9.277,8.789,-12.329
0.221,0.118,0.923,10.559,7.812,-10.193
0.226,0.121,0.925,11.353,5.981,-9.155
0.221,0.125,0.926,10.742,4.517,-8.728
0.222,0.120,0.926,8.789,3.662,-8.850
0.227,0.118,0.929,6.409,4.517,-8.728
0.226,0.119,0.935,4.395,5.920,-9.033
0.224,0.119,0.937,2.319,6.592,-9.216
0.222,0.116,0.940,0.183,6.409,-8.728
0.219,0.122,0.943,-1.465,5.737,-7.935
0.224,0.127,0.957,-1.953,5.249,-7.324
0.228,0.130,0.964,-1.343,5.249,-5.676
0.224,0.136,0.961,-1.221,4.761,-4.089
0.230,0.143,0.964,-0.977,4.395,-3.479
0.233,0.155,0.966,0.244,2.991,-2.808
0.244,0.157,0.964,1.953,0.916,-2.014
0.242,0.174,0.966,2.930,-1.526,-2.136
0.231,0.183,0.969,3.174,-2.808,-2.502
0.244,0.178,0.978,3.052,-3.113,-2.563
0.249,0.177,0.978,2.869,-1.648,-2.869
0.244,0.184,0.975,1.831,-0.488,-3.723

-0.186,-1.421,0.884,-16.663,10.010,53.772
-0.206,-1.345,0.848,-21.179,-2.380,81.299
-0.182,-1.194,0.831,-27.893,-13.794,108.765
-0.131,-1.023,0.824,-35.889,-25.574,131.836
-0.054,-0.850,0.839,-43.396,-31.982,145.935
0.002,-0.709,0.840,-47.424,-34.180,148.865
-0.013,-0.575,0.826,-46.631,-33.875,143.066
-0.068,-0.460,0.797,-43.884,-30.579,135.132
-0.166,-0.379,0.782,-42.603,-24.780,130.188
-0.291,-0.221,0.714,-41.809,-17.944,128.052
-0.441,-0.134,0.591,-38.635,-7.019,131.897
-0.378,0.165,0.640,-37.292,25.024,140.259
-0.680,0.241,0.386,-59.998,18.005,162.170
-0.722,0.458,0.398,-75.012,4.944,168.640
-0.823,0.740,0.359,-81.299,0.916,175.903
-0.858,1.004,0.326,-88.806,-10.620,184.692
-0.784,1.252,0.361,-95.276,-16.235,188.599
-0.686,1.471,0.444,-101.257,-10.132,185.730
-0.627,1.658,0.491,-113.892,-4.150,174.622
-0.525,1.808,0.596,-130.005,5.432,157.043
-0.524,1.906,0.637,-141.541,14.893,139.343
-0.433,1.985,0.750,-145.264,30.396,122.314
-0.313,2.055,0.849,-139.526,54.504,110.535
-0.116,2.080,0.910,-129.517,67.322,98.572
0.053,2.034,0.922,-114.014,66.650,80.322
0.214,1.905,0.891,-89.783,63.416,55.420
0.303,1.741,0.804,-59.998,59.631,23.743
0.296,1.523,0.708,-27.649,55.237,-10.315
0.202,1.324,0.620,-0.854,46.692,-45.288
0.075,1.125,0.578,18.005,33.936,-74.829
-0.067,0.950,0.543,26.917,19.592,-92.712
-0.166,0.786,0.536,28.870,8.728,-97.534
-0.239,0.683,0.556,25.879,-2.930,-94.482
-0.268,0.596,0.603,20.142,-14.282,-88.989
-0.275,0.514,0.692,14.832,-20.996,-79.407
-0.257,0.470,0.769,9.827,-23.743,-66.711
-0.229,0.433,0.819,7.446,-21.973,-54.321
-0.176,0.401,0.858,6.287,-19.287,-46.021
-0.149,0.375,0.875,6.348,-18.921,-41.748
-0.131,0.352,0.892,9.338,-19.531,-41.138
-0.129,0.333,0.917,14.648,-18.860,-41.687
-0.151,0.343,0.928,19.348,-19.836,-42.053
-0.155,0.337,0.950,22.339,-19.775,-40.955
-0.146,0.313,0.965,22.705,-18.494,-36.926
-0.132,0.298,0.973,22.217,-16.052,-32.288
-0.140,0.286,0.972,21.423,-15.198,-28.870
-0.136,0.296,0.978,20.996,-14.465,-25.696
-0.115,0.290,0.966,20.203,-13.000,-20.386
-0.073,0.288,0.972,20.386,-11.230,-15.442
-0.051,0.308,0.969,20.203,-9.338,-13.123
-0.011,0.321,0.974,20.874,-8.667,-12.207
0.010,0.301,0.977,21.057,-7.996,-12.512
0.020,0.299,0.978,20.325,-7.996,-13.123
0.040,0.289,0.980,19.775,-6.653,-15.320
0.045,0.270,0.981,19.592,-5.310,-17.822
0.050,0.256,0.984,18.860,-4.089,-20.386
0.049,0.238,0.985,18.066,-3.296,-20.813
0.059,0.223,0.983,16.174,-2.869,-20.264
0.062,0.229,0.990,13.428,-3.418,-20.020
0.068,0.220,1.001,11.353,-5.066,-20.386
0.066,0.215,1.005,10.071,-6.531,-20.935
0.067,0.203,1.015,9.644,-5.920,-21.301
0.061,0.193,1.023,9.766,-5.066,-19.897
0.060,0.182,1.030,9.766,-4.272,-18.616
0.053,0.166,1.021,8.850,-3.296,-17.456
0.057,0.168,1.025,9.460,-1.343,-16.785
0.068,0.151,1.047,10.559,-0.671,-15.930
0.076,0.127,1.049,11.414,-1.343,-13.977
0.072,0.139,1.052,12.939,-0.122,-12.207
0.074,0.155,1.051,14.587,1.343,-11.414
0.102,0.124,1.041,16.785,2.563,-9.949
0.108,0.127,1.025,19.958,5.127,-9.705
0.114,0.125,1.005,22.339,7.690,-10.925
0.142,0.104,0.995,23.254,9.644,-11.902
0.135,0.100,0.964,24.170,11.597,-12.634
0.136,0.109,0.944,25.696,13.550,-14.709
0.136,0.090,0.926,26.794,13.611,-15.259
0.138,0.071,0.906,28.076,13.611,-14.160
0.123,0.076,0.896,27.832,14.221,-13.428
0.124,0.069,0.893,26.123,15.564,-12.817
0.130,0.052,0.888,23.560,16.235,-10.864
0.136,0.051,0.883,21.057,16.907,-10.132
0.138,0.062,0.884,17.395,16.968,-11.108
0.150,0.055,0.887,14.343,16.357,-12.695
0.141,0.066,0.882,13.062,15.320,-13.062
0.141,0.080,0.874,12.695,14.709,-13.062
0.158,0.081,0.870,12.756,13.245,-12.634
0.176,0.078,0.871,13.000,10.620,-12.024
0.180,0.082,0.874,12.878,8.484,-11.902
0.165,0.099,0.888,11.536,7.568,-11.963
0.173,0.099,0.907,10.193,6.836,-12.268
0.173,0.091,0.920,8.911,6.714,-12.634
0.164,0.092,0.926,7.690,7.446,-13.855
0.133,0.106,0.935,5.493,8.606,-15.503
0.113,0.119,0.952,2.625,9.460,-17.395
0.103,0.111,0.968,0.977,9.644,-17.212
0.107,0.099,0.980,0.977,9.583,-15.442
0.112,0.086,0.986,1.038,10.193,-13.916
0.115,0.087,0.992,0.305,11.169,-12.756
0.116,0.097,1.000,-0.854,11.353,-11.230
0.140,0.093,1.001,-0.183,10.742,-9.705
0.153,0.090,1.001,3.479,10.193,-8.179
0.164,0.107,0.999,7.751,10.193,-8.484
0.168,0.122,0.997,10.681,9.399,-10.620
0.175,0.119,0.993,12.756,9.033,-12.024
0.179,0.117,0.985,14.404,10.254,-12.817
0.178,0.107,0.974,15.137,11.780,-14.954
0.175,0.101,0.960,15.503,12.878,-17.395
0.154,0.095,0.951,15.747,13.611,-18.738
0.136,0.091,0.934,14.648,13.306,-17.883
0.145,0.076,0.926,12.329,12.207,-15.015
0.165,0.060,0.930,9.644,9.766,-12.756
0.172,0.041,0.945,7.507,7.385,-11.719
0.168,0.040,0.956,5.066,6.042,-11.719
0.164,0.042,0.967,2.991,6.226,-12.329
0.153,0.054,0.982,1.465,6.287,-12.939
0.147,0.058,0.996,1.526,6.653,-12.817
0.141,0.059,0.996,3.052,7.385,-11.475
0.146,0.054,0.994,4.700,7.935,-9.277

-0.492,1.568,0.584,-103.577,32.471,100.830
-0.431,1.647,0.660,-105.103,34.302,96.436
-0.354,1.701,0.750,-102.417,32.593,88.379
-0.237,1.743,0.813,-93.140,30.457,76.782
-0.155,1.751,0.854,-80.200,29.907,59.814
-0.035,1.687,0.851,-65.125,35.156,37.659
0.089,1.582,0.810,-48.950,47.180,10.986
0.105,1.449,0.710,-30.151,53.955,-17.944
0.043,1.294,0.624,-12.634,49.072,-49.744
-0.037,1.118,0.572,1.526,40.039,-75.867
-0.146,0.984,0.544,11.963,26.855,-90.881
-0.224,0.855,0.534,18.188,12.024,-97.656
-0.285,0.758,0.568,19.897,0.793,-95.337
-0.344,0.702,0.602,19.043,-13.977,-89.294
-0.331,0.638,0.693,19.714,-23.926,-81.848
-0.305,0.592,0.775,19.836,-28.259,-70.862
-0.280,0.562,0.836,19.653,-28.320,-60.608
-0.225,0.528,0.887,19.653,-24.353,-53.162
-0.146,0.439,0.924,17.029,-22.278,-49.622
-0.138,0.383,0.950,13.489,-20.935,-51.514
-0.154,0.351,0.964,10.071,-15.869,-56.458
-0.193,0.316,0.969,8.118,-9.827,-59.998
-0.202,0.288,0.973,8.362,-3.906,-59.448
-0.230,0.309,0.962,11.230,0.427,-54.871
-0.235,0.349,0.952,17.151,0.793,-48.096
-0.202,0.366,0.940,24.231,-2.563,-39.063
-0.162,0.397,0.932,32.654,-6.958,-30.090
-0.113,0.422,0.930,40.894,-12.878,-23.437
-0.080,0.418,0.916,46.143,-18.066,-18.982
-0.035,0.408,0.909,48.401,-19.958,-17.456
-0.003,0.391,0.918,47.668,-18.677,-18.433
0.000,0.365,0.907,43.884,-15.015,-20.264
0.032,0.343,0.905,36.926,-9.460,-23.193
0.040,0.307,0.905,29.297,-5.066,-26.306
0.035,0.288,0.911,22.522,-2.441,-29.480
0.042,0.250,0.917,17.151,0.427,-31.555
0.049,0.233,0.930,13.062,2.319,-32.166
0.063,0.206,0.943,11.719,2.747,-31.494
0.057,0.203,0.949,12.268,2.625,-29.663
0.063,0.196,0.944,13.062,2.747,-27.283
0.064,0.197,0.939,13.916,2.686,-24.963
0.083,0.181,0.936,16.113,2.686,-22.888
0.102,0.163,0.932,18.982,2.380,-20.874
0.107,0.156,0.920,21.179,1.892,-19.531
0.123,0.139,0.908,22.217,1.099,-18.311
0.144,0.125,0.911,21.973,0.488,-17.151
0.154,0.120,0.913,22.034,0.061,-16.052
0.146,0.125,0.910,21.973,-0.244,-15.137
0.159,0.109,0.903,20.691,-1.038,-13.489
0.163,0.104,0.911,18.921,-2.197,-12.573
0.177,0.105,0.921,16.907,-3.418,-13.733
0.174,0.089,0.932,14.343,-3.662,-15.930
0.163,0.075,0.926,10.193,-1.892,-18.372
0.149,0.066,0.932,5.127,1.221,-19.470
0.149,0.047,0.943,0.366,3.662,-18.677
0.158,0.035,0.948,-2.380,5.493,-16.418
0.149,0.042,0.955,-3.418,6.165,-14.160
0.142,0.052,0.958,-3.418,5.249,-11.475
0.164,0.035,0.961,-1.831,3.845,-7.507
0.165,0.053,0.961,0.732,2.686,-4.517
0.160,0.102,0.962,4.089,1.465,-3.235
0.195,0.100,0.965,7.324,-0.244,-1.343
0.204,0.110,0.962,9.583,-1.648,-0.488
0.195,0.137,0.965,9.644,-2.197,-1.587
0.195,0.145,0.978,8.179,-2.258,-2.625
0.188,0.150,0.982,5.615,-1.770,-3.418
0.173,0.161,0.986,2.930,-0.671,-4.211
0.169,0.165,1.000,0.183,0.427,-5.188
0.168,0.154,1.016,-1.648,0.916,-5.859
0.160,0.158,1.023,-1.953,2.075,-6.531
0.143,0.167,1.026,-0.977,3.723,-6.409
0.133,0.172,1.028,0.244,4.211,-6.104
0.139,0.162,1.028,2.197,3.967,-5.066
0.133,0.165,1.020,5.005,3.601,-4.028
0.129,0.178,1.012,8.179,3.418,-3.357
0.141,0.170,1.001,11.169,2.686,-2.563
0.144,0.171,0.988,13.855,1.709,-1.648
0.139,0.186,0.974,16.296,0.732,-2.014
0.146,0.186,0.966,17.700,0.305,-2.441
0.145,0.186,0.954,18.433,0.366,-2.869
0.134,0.199,0.945,17.944,0.732,-3.357
0.130,0.200,0.937,16.907,1.160,-3.784
0.137,0.185,0.934,15.930,1.282,-3.479
0.131,0.192,0.930,15.015,0.854,-3.418
0.124,0.211,0.937,13.855,0.305,-3.479
0.140,0.203,0.943,12.573,-0.183,-3.235
0.143,0.204,0.951,11.902,-0.427,-3.113
0.133,0.216,0.958,11.414,-0.549,-3.967
0.137,0.206,0.965,11.169,0.427,-4.272
0.132,0.202,0.965,11.047,2.136,-4.578
0.126,0.205,0.966,10.864,3.479,-5.310
0.131,0.200,0.964,10.925,4.272,-5.981
0.141,0.185,0.959,10.986,4.517,-6.104
0.130,0.185,0.948,10.132,4.944,-7.202
0.130,0.184,0.945,8.545,5.676,-7.874
0.142,0.175,0.943,7.263,5.981,-7.568
0.147,0.175,0.941,7.019,5.859,-7.324
0.141,0.173,0.943,6.714,5.432,-7.996
0.134,0.165,0.943,6.042,5.310,-8.240
0.138,0.156,0.944,5.859,5.310,-7.812
0.133,0.164,0.947,6.592,4.456,-7.263
0.137,0.162,0.953,7.874,3.113,-7.080
0.140,0.161,0.956,9.155,1.770,-6.775
0.143,0.156,0.958,9.705,1.160,-6.836
0.134,0.156,0.962,9.705,1.465,-7.385
0.126,0.151,0.957,9.460,2.197,-7.507
0.130,0.141,0.955,8.789,3.540,-6.531
0.130,0.133,0.956,8.484,3.784,-6.042
0.125,0.132,0.957,9.094,2.930,-5.615
0.121,0.130,0.957,9.155,1.770,-4.883
0.118,0.135,0.956,8.728,1.221,-3.967
0.126,0.132,0.956,8.179,0.549,-3.601
0.133,0.126,0.953,7.996,-0.122,-3.296
0.145,0.120,0.950,7.324,-0.488,-3.357
0.152,0.109,0.950,5.432,-0.061,-3.906
0.156,0.099,0.950,3.540,0.916,-4.822
0.151,0.105,0.947,2.502,1.953,-5.737
0.142,0.106,0.941,2.441,2.319,-6.287
0.145,0.102,0.943,2.747,1.709,-5.798

-0.681,1.484,0.508,-79.407,-21.240,119.690
-0.565,1.587,0.616,-87.036,-22.461,124.451
-0.413,1.680,0.740,-91.736,-22.522,122.986
-0.270,1.709,0.815,-93.262,-20.325,112.183
-0.137,1.701,0.887,-91.675,-15.137,90.698
-0.047,1.649,0.928,-86.792,-3.967,60.547
0.061,1.556,0.957,-78.796,13.916,26.428
0.067,1.417,0.908,-66.956,29.541,-5.981
0.059,1.237,0.819,-50.476,39.673,-37.354
-0.014,1.062,0.742,-33.264,43.152,-64.270
-0.114,0.910,0.675,-17.029,37.903,-82.764
-0.220,0.757,0.594,-2.747,27.588,-92.529
-0.244,0.613,0.607,6.775,18.860,-91.125
-0.286,0.525,0.604,9.888,2.930,-83.313
-0.267,0.455,0.639,12.207,-11.108,-72.388
-0.236,0.423,0.690,13.123,-21.362,-59.692
-0.201,0.393,0.763,10.803,-28.809,-48.828
-0.161,0.376,0.820,6.348,-32.349,-41.870
-0.124,0.355,0.884,-0.122,-32.410,-38.452
-0.117,0.331,0.943,-7.751,-30.823,-39.246
-0.101,0.299,1.003,-14.526,-26.306,-41.138
-0.115,0.271,1.040,-19.775,-20.813,-41.321
-0.120,0.266,1.075,-22.095,-14.343,-40.344
-0.132,0.287,1.093,-21.667,-10.254,-37.292
-0.148,0.312,1.104,-15.808,-7.812,-32.776
-0.160,0.350,1.107,-6.958,-7.141,-27.588
-0.162,0.407,1.099,3.235,-8.301,-21.240
-0.139,0.439,1.078,15.076,-10.925,-13.916
-0.085,0.441,1.050,25.085,-12.817,-8.301
-0.041,0.461,1.032,31.616,-14.282,-5.432
-0.041,0.499,1.013,35.278,-14.648,-4.761
-0.013,0.504,0.999,36.255,-14.648,-6.104
0.007,0.499,0.991,35.522,-13.550,-8.057
0.020,0.501,0.986,33.630,-10.681,-10.986
0.030,0.498,0.988,30.884,-7.446,-14.282
0.047,0.471,0.979,27.100,-4.211,-17.273
0.050,0.442,0.967,23.621,-0.732,-19.531
0.047,0.437,0.961,20.935,3.479,-22.095
0.061,0.414,0.960,20.386,6.470,-23.193
0.069,0.368,0.944,21.790,8.484,-24.170
0.053,0.368,0.927,22.766,9.338,-25.879
0.042,0.366,0.920,23.193,9.338,-26.672
0.058,0.338,0.922,23.926,9.277,-25.818
0.061,0.308,0.897,24.780,10.193,-24.719
0.053,0.320,0.890,24.231,11.475,-24.170
0.063,0.326,0.886,22.766,10.620,-23.621
0.106,0.302,0.887,22.888,9.399,-23.132
0.132,0.280,0.875,24.292,9.399,-22.949
0.152,0.267,0.871,24.902,9.949,-23.804
0.142,0.271,0.866,23.926,9.705,-25.391
0.157,0.226,0.855,22.705,9.705,-25.452
0.168,0.202,0.846,21.362,10.315,-24.841
0.160,0.202,0.841,19.287,10.132,-24.902
0.166,0.172,0.848,16.541,8.728,-24.414
0.168,0.141,0.853,13.855,7.202,-23.254
0.155,0.152,0.859,11.597,6.165,-21.912
0.157,0.159,0.867,10.315,4.639,-19.714
0.171,0.139,0.873,10.620,3.052,-17.273
0.177,0.142,0.881,11.780,1.404,-16.113
0.163,0.153,0.886,13.184,-0.366,-15.137
0.175,0.145,0.891,13.306,-2.502,-14.099
0.161,0.154,0.896,12.390,-3.601,-13.489
0.162,0.167,0.903,11.047,-3.784,-13.062
0.188,0.151,0.905,9.644,-3.540,-11.902
0.187,0.158,0.912,8.728,-3.479,-11.536
0.174,0.173,0.916,7.874,-3.540,-11.963
0.193,0.148,0.922,6.592,-3.845,-10.681
0.207,0.139,0.928,5.859,-4.456,-9.705
0.184,0.171,0.940,6.042,-5.188,-10.132
0.190,0.178,0.952,6.348,-5.981,-10.498
0.188,0.169,0.958,5.737,-6.104,-10.254
0.170,0.184,0.958,4.761,-5.188,-10.803
0.156,0.206,0.965,3.906,-4.333,-11.230
0.164,0.203,0.970,4.333,-3.906,-10.986
0.157,0.208,0.967,5.676,-3.357,-9.827
0.159,0.222,0.972,7.019,-3.235,-8.423
0.177,0.213,0.982,7.812,-3.662,-7.751
0.182,0.203,0.985,8.911,-4.333,-8.118
0.182,0.199,0.982,9.460,-3.662,-9.338
0.173,0.205,0.977,8.789,-1.770,-11.963
0.177,0.193,0.976,7.690,0.061,-14.709
0.166,0.185,0.971,7.690,2.075,-16.907
0.151,0.186,0.964,8.423,3.967,-18.433
0.146,0.172,0.968,9.399,4.944,-18.188
0.147,0.160,0.969,10.498,5.188,-16.541
0.156,0.157,0.967,12.695,5.127,-14.771
0.167,0.151,0.964,14.648,4.028,-13.733
0.173,0.143,0.956,16.296,2.808,-13.000
0.177,0.130,0.953,16.907,1.465,-13.000
0.169,0.132,0.953,16.052,1.038,-13.550
0.166,0.118,0.958,14.160,1.831,-14.038
0.165,0.111,0.962,11.902,3.174,-14.160
0.159,0.118,0.964,9.827,4.272,-14.099
0.166,0.122,0.973,8.850,4.639,-13.550
0.171,0.120,0.976,9.216,4.395,-13.245
0.173,0.120,0.970,10.071,4.822,-12.695
0.176,0.126,0.970,10.742,4.517,-12.207
0.186,0.132,0.973,11.475,3.906,-12.146
0.186,0.136,0.975,11.841,3.357,-12.390
0.183,0.139,0.972,12.268,3.662,-11.963
0.185,0.140,0.969,12.024,3.845,-11.597
0.195,0.137,0.974,12.024,3.540,-11.230
0.205,0.128,0.981,12.390,2.869,-11.475
0.207,0.123,0.979,12.512,2.686,-12.939
0.189,0.122,0.975,11.841,3.174,-15.320
0.180,0.114,0.972,10.681,4.028,-16.235
0.180,0.109,0.967,10.925,4.761,-15.869
0.168,0.117,0.961,11.475,4.761,-15.259
0.165,0.111,0.958,11.780,4.089,-13.916
0.177,0.100,0.955,12.207,2.930,-11.597
0.186,0.095,0.948,12.512,1.465,-10.193
0.184,0.101,0.944,12.451,0.610,-9.521
0.178,0.108,0.946,11.597,-0.305,-9.705
0.181,0.103,0.946,10.376,-0.305,-9.399
0.190,0.098,0.945,9.094,-0.061,-9.644
0.184,0.104,0.944,7.568,-0.061,-10.437
0.176,0.104,0.950,6.409,-0.427,-11.597
0.171,0.096,0.956,5.920,-0.549,-11.597
0.175,0.087,0.953,6.165,-0.549,-10.620

-0.498,1.491,0.816,-75.439,-5.066,110.413
-0.382,1.602,0.836,-71.106,-2.869,102.539
-0.298,1.662,0.846,-64.087,-0.793,92.773
-0.215,1.709,0.858,-54.077,6.042,78.796
-0.167,1.743,0.839,-43.518,16.235,61.768
-0.086,1.724,0.815,-31.616,28.687,42.114
-0.022,1.670,0.766,-21.545,39.551,21.667
0.021,1.568,0.693,-12.024,48.096,-0.183
0.040,1.426,0.614,-2.808,53.833,-20.508
0.049,1.264,0.545,4.395,56.091,-39.551
0.028,1.103,0.496,9.399,54.993,-54.749
0.008,0.950,0.465,11.658,49.072,-65.857
-0.021,0.822,0.463,11.292,37.720,-71.960
-0.056,0.727,0.502,9.705,22.827,-73.059
-0.069,0.665,0.556,9.827,6.775,-69.397
-0.111,0.637,0.619,13.123,-7.385,-63.110
-0.049,0.593,0.682,17.273,-17.578,-56.946
-0.047,0.560,0.755,20.325,-22.705,-51.270
0.005,0.527,0.800,20.813,-22.400,-49.316
0.024,0.488,0.844,18.433,-22.095,-48.340
0.050,0.459,0.871,15.991,-19.409,-48.828
0.053,0.421,0.899,13.306,-16.724,-49.866
0.043,0.392,0.927,12.085,-15.076,-49.805
0.031,0.394,0.942,13.489,-13.794,-48.462
0.017,0.418,0.953,18.127,-13.611,-46.326
0.004,0.429,0.955,24.475,-14.343,-42.786
0.017,0.450,0.951,30.273,-14.771,-38.452
0.038,0.451,0.945,36.926,-15.564,-34.729
0.048,0.459,0.916,43.335,-15.564,-32.471
0.064,0.464,0.895,48.523,-15.198,-31.433
0.088,0.457,0.870,50.415,-15.137,-31.799
0.098,0.452,0.857,50.354,-14.709,-33.997
0.088,0.456,0.841,48.889,-13.672,-36.560
0.109,0.427,0.831,46.936,-12.939,-38.818
0.111,0.395,0.820,44.373,-11.475,-40.955
0.100,0.380,0.817,39.551,-10.376,-43.213
0.098,0.357,0.820,35.095,-9.521,-44.373
0.119,0.300,0.817,31.799,-9.277,-44.250
0.115,0.268,0.818,29.114,-9.155,-44.617
0.101,0.256,0.822,25.940,-10.071,-45.044
0.086,0.234,0.836,22.278,-11.780,-44.678
0.089,0.207,0.846,19.348,-12.268,-43.518
0.100,0.183,0.856,17.517,-12.024,-41.504
0.098,0.182,0.859,16.357,-11.292,-40.649
0.089,0.201,0.864,16.052,-11.658,-40.466
0.106,0.196,0.874,17.212,-12.573,-39.001
0.121,0.171,0.878,19.470,-13.611,-37.476
0.113,0.168,0.879,21.545,-13.794,-36.499
0.106,0.174,0.889,22.461,-12.817,-35.706
0.111,0.162,0.898,22.766,-13.306,-33.630
0.134,0.133,0.900,22.339,-13.794,-31.067
0.135,0.125,0.900,21.118,-12.573,-30.029
0.122,0.136,0.906,18.555,-11.292,-30.273
0.126,0.112,0.914,15.747,-10.681,-30.029
0.132,0.084,0.920,13.428,-9.705,-29.114
0.119,0.085,0.924,11.414,-7.935,-28.625
0.092,0.101,0.935,9.277,-6.531,-27.588
0.115,0.078,0.940,8.179,-5.005,-24.780
0.125,0.068,0.944,8.362,-4.150,-22.034
0.123,0.072,0.942,8.301,-3.418,-20.264
0.122,0.082,0.944,7.996,-3.113,-19.409
0.144,0.052,0.945,7.690,-2.930,-18.188
0.138,0.043,0.942,7.324,-1.892,-17.517
0.120,0.060,0.940,6.592,0.183,-16.602
0.125,0.062,0.944,5.310,1.465,-14.160
0.137,0.052,0.950,5.066,1.831,-10.925
0.134,0.069,0.957,5.493,2.380,-8.118
0.155,0.072,0.959,4.883,1.465,-4.761
0.156,0.093,0.973,3.235,0.061,-3.540
0.152,0.123,0.992,2.075,-0.732,-3.540
0.163,0.118,1.000,2.808,0.061,-2.686
0.154,0.129,1.001,2.991,0.000,-0.732
0.153,0.148,1.008,2.869,0.305,0.488
0.179,0.166,1.022,2.563,0.854,1.099
0.173,0.160,1.029,2.991,-0.122,1.526
0.175,0.164,1.033,3.174,-0.244,2.502
0.178,0.179,1.038,3.845,0.366,2.930
0.180,0.193,1.046,5.005,1.038,3.174
0.181,0.197,1.044,7.324,2.075,4.028
0.202,0.194,1.048,10.864,2.686,5.798
0.221,0.199,1.039,15.076,1.953,6.653
0.237,0.192,1.032,18.921,1.160,6.775
0.245,0.193,1.019,21.240,1.099,5.554
0.243,0.190,1.004,21.851,1.953,3.601
0.238,0.187,0.995,20.752,3.662,1.526
0.242,0.180,0.989,19.409,5.920,-0.610
0.240,0.173,0.976,18.311,7.019,-2.563
0.238,0.170,0.967,17.883,7.751,-3.357
0.240,0.161,0.957,17.700,7.568,-3.601
0.236,0.146,0.947,17.395,6.531,-3.601
0.231,0.141,0.943,16.663,5.066,-3.418
0.237,0.129,0.939,16.479,4.089,-3.052
0.240,0.119,0.932,15.991,3.357,-2.991
0.240,0.112,0.932,15.137,3.174,-3.113
0.250,0.094,0.935,13.550,2.808,-3.418
0.240,0.088,0.937,11.841,3.052,-4.211
0.233,0.084,0.938,9.888,3.540,-5.249
0.222,0.078,0.942,7.324,4.150,-6.104
0.211,0.081,0.945,4.822,4.089,-6.531
0.213,0.075,0.953,2.930,4.028,-6.287
0.210,0.080,0.961,1.648,3.906,-5.493
0.210,0.094,0.967,1.221,3.662,-5.127
0.210,0.099,0.973,1.831,3.113,-4.578
0.204,0.114,0.974,3.235,2.197,-3.845
0.199,0.135,0.983,4.639,1.343,-3.540
0.193,0.150,0.991,6.165,0.671,-2.686
0.202,0.165,0.993,7.874,0.366,-1.221
0.212,0.178,0.997,9.644,-0.183,-0.427
0.220,0.189,0.998,11.658,-1.221,-0.916
0.227,0.195,0.997,13.794,-0.916,-2.197
0.229,0.200,0.993,14.954,0.000,-3.845
0.235,0.194,0.987,15.137,2.197,-5.737
0.232,0.184,0.978,15.015,4.517,-8.423
0.223,0.173,0.966,15.015,6.287,-10.864
0.210,0.160,0.950,14.832,6.897,-12.634
0.201,0.142,0.936,14.404,6.714,-13.428
0.189,0.134,0.926,13.794,5.737,-13.428
0.187,0.127,0.922,13.245,4.333,-12.817
0.189,0.119,0.920,12.329,2.869,-11.658

-0.526,1.142,0.963,-29.419,-2.014,100.220
-0.465,1.277,0.948,-21.423,-1.587,100.708
-0.432,1.417,0.915,-16.296,-6.897,95.886
-0.351,1.493,0.921,-13.489,-9.644,87.952
-0.286,1.519,0.945,-13.000,-7.812,78.674
-0.249,1.545,0.945,-13.672,-1.404,66.833
-0.152,1.532,0.946,-14.160,13.489,51.392
-0.129,1.501,0.903,-14.282,30.029,34.546
-0.046,1.434,0.860,-12.329,49.072,14.404
-0.024,1.340,0.788,-9.644,63.782,-5.981
-0.025,1.218,0.709,-5.554,70.374,-27.527
-0.051,1.084,0.637,0.305,75.439,-45.593
-0.052,0.938,0.578,5.981,77.148,-57.739
-0.097,0.811,0.544,9.888,72.021,-65.796
-0.106,0.689,0.535,12.512,59.875,-70.374
-0.116,0.576,0.552,14.465,43.030,-70.251
-0.128,0.484,0.591,15.259,24.719,-68.237
-0.166,0.413,0.630,14.526,8.545,-65.674
-0.151,0.347,0.693,11.414,0.366,-61.523
-0.165,0.317,0.732,6.104,-1.343,-54.993
-0.147,0.337,0.786,2.075,2.136,-50.415
-0.136,0.353,0.823,-1.587,2.747,-46.387
-0.108,0.380,0.853,-3.235,1.831,-41.870
-0.093,0.399,0.885,-1.526,-0.732,-39.246
-0.065,0.395,0.898,1.343,-3.174,-38.208
-0.042,0.391,0.907,3.784,-3.784,-37.476
-0.029,0.384,0.911,5.676,-4.028,-38.452
-0.026,0.369,0.915,6.409,-3.357,-40.588
-0.031,0.363,0.913,5.798,-1.892,-43.213
-0.034,0.342,0.904,5.676,0.061,-44.617
-0.008,0.321,0.906,6.287,1.343,-44.922
-0.001,0.293,0.893,7.263,2.258,-44.373
-0.001,0.283,0.886,7.629,2.747,-43.335
0.008,0.290,0.894,8.240,1.465,-41.199
0.037,0.252,0.894,9.583,-0.916,-38.269
0.023,0.266,0.898,10.315,-3.174,-36.438
0.032,0.271,0.909,10.620,-4.822,-35.034
0.066,0.286,0.933,11.597,-5.310,-32.837
0.088,0.272,0.943,12.512,-5.676,-30.884
0.096,0.266,0.951,12.207,-5.676,-29.480
0.102,0.278,0.963,11.169,-5.127,-29.968
0.110,0.260,0.971,9.766,-5.127,-30.396
0.121,0.226,0.972,8.667,-5.005,-30.396
0.135,0.206,0.973,7.141,-4.150,-30.701
0.128,0.212,0.979,5.005,-3.235,-31.860
0.140,0.180,0.990,4.578,-3.418,-31.738
0.146,0.143,0.995,4.944,-3.784,-30.701
0.137,0.143,1.004,5.066,-3.052,-30.029
0.136,0.122,1.009,4.883,-2.808,-29.175
0.139,0.110,1.024,5.432,-1.526,-27.222
0.157,0.079,1.018,5.859,0.488,-24.963
0.157,0.070,1.010,6.226,2.808,-24.109
0.147,0.076,1.006,6.226,5.188,-23.865
0.149,0.067,1.003,6.714,6.958,-22.583
0.163,0.055,0.998,8.423,8.850,-20.630
0.171,0.052,0.984,11.597,10.864,-18.738
0.170,0.061,0.968,14.526,12.085,-17.456
0.167,0.066,0.951,16.174,12.451,-16.296
0.175,0.059,0.934,17.151,12.817,-14.648
0.192,0.057,0.916,17.456,12.878,-12.695
0.193,0.076,0.900,17.456,12.329,-11.230
0.197,0.087,0.900,16.479,10.437,-9.949
0.212,0.072,0.903,15.686,8.179,-7.812
0.199,0.096,0.910,15.442,7.080,-6.287
0.188,0.139,0.920,15.564,5.920,-5.188
0.211,0.136,0.933,15.686,4.822,-3.723
0.225,0.129,0.931,15.686,4.639,-2.747
0.207,0.164,0.934,15.991,5.493,-2.380
0.227,0.166,0.931,14.954,5.859,-2.197
0.245,0.157,0.932,13.550,5.249,-2.258
0.247,0.153,0.930,12.878,5.188,-3.418
0.237,0.159,0.927,11.963,5.981,-4.822
0.242,0.159,0.934,11.475,6.775,-6.042
0.245,0.152,0.934,11.658,7.080,-6.836
0.227,0.167,0.936,12.268,7.568,-7.690
0.233,0.175,0.938,12.939,7.690,-7.996
0.232,0.162,0.931,13.245,7.019,-7.141
0.244,0.162,0.932,14.099,6.104,-7.385
0.234,0.165,0.934,14.465,5.554,-7.874
0.234,0.157,0.939,14.099,5.371,-8.362
0.236,0.147,0.941,13.733,6.165,-8.118
0.232,0.146,0.943,13.062,7.202,-8.484
0.238,0.142,0.949,12.878,7.874,-8.972
0.245,0.125,0.947,13.550,7.874,-9.399
0.236,0.125,0.943,13.916,7.812,-10.193
0.231,0.124,0.942,14.099,7.080,-10.681
0.238,0.113,0.942,14.648,5.981,-9.583
0.240,0.111,0.945,15.015,4.578,-8.545
0.237,0.115,0.953,15.015,3.418,-8.057
0.245,0.108,0.960,14.526,2.686,-7.568
0.244,0.107,0.965,13.611,2.441,-7.507
0.245,0.111,0.965,12.207,2.686,-8.545
0.251,0.111,0.968,11.353,3.418,-9.338
0.250,0.109,0.970,11.292,4.272,-11.047
0.246,0.104,0.966,11.597,5.066,-12.573
0.234,0.101,0.960,12.329,5.554,-12.939
0.232,0.096,0.958,13.184,5.676,-12.329
0.228,0.093,0.957,14.221,5.249,-11.719
0.227,0.093,0.958,14.709,5.188,-11.047
0.230,0.087,0.958,14.404,4.761,-10.437
0.225,0.085,0.959,13.672,4.700,-10.498
0.232,0.082,0.954,13.184,5.493,-10.315
0.240,0.073,0.952,13.000,6.165,-10.071
0.233,0.071,0.946,13.000,5.920,-10.864
0.224,0.068,0.949,13.306,6.104,-10.925
0.224,0.063,0.948,13.184,6.226,-10.498
0.222,0.063,0.943,12.817,5.920,-9.644
0.225,0.060,0.945,12.390,5.188,-9.277
0.222,0.056,0.950,11.841,4.517,-8.972
0.219,0.046,0.946,11.047,4.333,-8.728
0.215,0.041,0.950,9.766,4.700,-7.751
0.209,0.043,0.957,8.484,4.456,-7.080
0.207,0.041,0.959,7.935,4.578,-5.981
0.211,0.038,0.962,8.118,4.578,-4.578
0.212,0.038,0.964,8.728,4.333,-3.296
0.216,0.036,0.960,9.277,3.845,-1.953
0.224,0.039,0.957,10.376,3.479,0.061
0.229,0.050,0.960,11.841,2.197,1.465
0.232,0.051,0.958,13.000,0.488,1.892

-0.422,1.782,0.404,-43.579,106.079,116.821
-0.349,1.855,0.340,-36.438,106.262,111.389
-0.371,1.899,0.299,-34.363,101.807,104.004
-0.285,1.914,0.385,-34.973,95.520,96.069
-0.272,1.953,0.357,-37.048,90.271,88.684
-0.159,1.979,0.386,-33.997,102.844,77.148
-0.030,1.958,0.374,-31.128,111.450,64.575
0.087,1.882,0.338,-28.503,108.521,47.241
0.189,1.771,0.293,-21.362,103.271,24.292
0.181,1.643,0.214,-8.484,92.468,-1.526
0.155,1.459,0.150,7.935,82.031,-26.428
0.145,1.298,0.165,22.156,67.261,-46.753
0.033,1.175,0.203,30.823,34.973,-62.683
-0.059,1.040,0.280,37.048,0.305,-71.838
-0.131,0.926,0.367,42.542,-23.376,-72.266
-0.131,0.832,0.452,46.753,-37.170,-65.125
-0.125,0.756,0.537,50.659,-53.406,-55.420
-0.175,0.719,0.577,56.030,-62.195,-48.462
-0.112,0.674,0.660,59.570,-57.861,-42.175
-0.078,0.630,0.694,58.167,-53.223,-37.048
-0.080,0.595,0.737,54.138,-46.204,-34.241
-0.048,0.554,0.768,48.706,-38.940,-34.729
-0.026,0.510,0.789,42.847,-34.607,-36.865
-0.030,0.476,0.796,37.598,-31.738,-38.574
-0.037,0.462,0.797,35.400,-31.616,-38.635
-0.026,0.428,0.802,35.461,-33.752,-36.987
-0.007,0.398,0.811,36.987,-35.034,-35.583
-0.005,0.374,0.823,37.964,-36.316,-34.241
0.011,0.349,0.835,37.170,-36.194,-32.593
0.028,0.334,0.858,34.302,-35.889,-29.907
0.055,0.305,0.881,29.846,-36.804,-26.855
0.066,0.283,0.900,24.597,-37.048,-24.414
0.079,0.264,0.909,19.348,-36.560,-23.682
0.074,0.258,0.942,15.320,-35.583,-22.888
0.086,0.225,0.961,11.108,-34.912,-22.095
0.074,0.237,0.974,6.470,-32.776,-21.545
0.101,0.219,0.997,3.479,-30.334,-20.813
0.110,0.211,1.012,1.770,-29.724,-18.982
0.118,0.199,1.016,1.099,-29.297,-15.991
0.125,0.231,1.026,2.441,-27.649,-13.794
0.134,0.256,1.032,6.226,-26.978,-11.780
0.170,0.240,1.035,10.986,-27.893,-10.010
0.181,0.227,1.036,14.221,-30.212,-8.972
0.191,0.229,1.041,15.747,-30.090,-9.583
0.214,0.206,1.046,16.113,-28.076,-10.925
0.199,0.186,1.031,14.709,-25.940,-12.695
0.182,0.198,1.025,12.146,-21.545,-14.526
0.199,0.181,1.021,9.155,-16.968,-15.259
0.197,0.156,1.014,7.324,-13.672,-14.954
0.165,0.178,1.013,7.263,-10.437,-14.771
0.172,0.173,1.011,9.399,-7.019,-13.306
0.191,0.163,1.005,13.306,-5.493,-10.254
0.192,0.174,1.000,18.555,-5.615,-8.057
0.191,0.178,0.986,23.743,-7.202,-7.141
0.185,0.175,0.969,27.771,-9.033,-6.409
0.177,0.184,0.952,30.457,-9.033,-5.554
0.171,0.200,0.943,31.189,-8.789,-5.127
0.176,0.191,0.940,31.006,-7.690,-4.272
0.181,0.191,0.927,30.212,-5.432,-3.601
0.194,0.194,0.930,28.931,-3.540,-4.089
0.203,0.184,0.929,27.527,-2.197,-6.226
0.198,0.162,0.926,25.696,-1.343,-8.789
0.184,0.153,0.930,23.499,0.427,-10.864
0.169,0.162,0.935,20.508,2.014,-12.329
0.168,0.155,0.947,18.921,3.601,-12.451
0.166,0.146,0.950,19.409,4.761,-12.024
0.143,0.159,0.951,20.935,5.737,-11.414
0.145,0.159,0.954,22.339,6.042,-10.071
0.154,0.145,0.958,23.621,5.310,-7.874
0.151,0.154,0.955,24.353,4.822,-5.859
0.165,0.152,0.953,24.475,4.883,-4.211
0.175,0.150,0.950,23.437,4.517,-3.357
0.182,0.170,0.946,21.912,4.700,-3.662
0.199,0.166,0.953,19.836,4.761,-5.798
0.195,0.156,0.959,17.578,5.005,-9.094
0.177,0.154,0.958,15.198,6.409,-12.207
0.169,0.149,0.958,13.794,8.850,-13.489
0.165,0.134,0.958,13.306,10.315,-13.977
0.158,0.126,0.954,13.489,10.071,-13.794
0.147,0.118,0.951,14.648,10.132,-12.390
0.164,0.106,0.951,16.296,10.376,-10.071
0.172,0.103,0.947,17.212,9.583,-8.118
0.177,0.101,0.945,17.944,8.972,-6.470
0.175,0.105,0.946,18.799,8.667,-5.493
0.180,0.104,0.943,18.616,8.484,-4.944
0.187,0.095,0.941,17.700,8.118,-4.639
0.180,0.092,0.942,15.686,7.202,-5.066
0.185,0.087,0.943,12.634,7.629,-5.554
0.185,0.085,0.949,9.033,8.484,-5.798
0.182,0.084,0.949,5.615,9.521,-6.348
0.182,0.083,0.954,3.479,11.169,-6.592
0.181,0.083,0.958,2.319,12.268,-6.348
0.189,0.072,0.972,2.625,12.817,-5.249
0.193,0.073,0.966,4.028,13.062,-4.150
0.194,0.073,0.959,6.592,12.939,-3.296
0.202,0.074,0.965,9.705,12.085,-2.441
0.199,0.078,0.963,12.207,10.559,-1.648
0.206,0.080,0.966,13.916,10.071,-0.610
0.221,0.080,0.965,14.771,10.254,0.000
0.221,0.088,0.959,14.282,10.132,-0.549
0.219,0.091,0.948,13.245,10.498,-1.160
0.235,0.087,0.944,11.353,11.169,-1.709
0.234,0.092,0.938,8.667,10.681,-2.869
0.229,0.101,0.933,6.470,10.864,-3.723
0.239,0.093,0.928,4.822,11.047,-4.089
0.242,0.096,0.917,2.930,10.315,-4.517
0.233,0.089,0.915,1.465,9.338,-4.700
0.235,0.091,0.927,0.305,7.996,-4.700
0.230,0.089,0.932,-0.061,7.080,-4.333
0.235,0.091,0.943,-0.305,6.958,-4.028
0.233,0.099,0.952,-0.183,5.798,-4.456
0.231,0.100,0.962,-0.061,5.188,-5.676
0.219,0.106,0.960,-0.244,5.981,-6.348
0.229,0.105,0.967,-0.732,7.446,-6.714
0.230,0.102,0.967,-1.282,7.568,-7.385
0.226,0.104,0.966,-0.916,7.874,-8.118
0.224,0.104,0.962,-0.671,8.423,-8.423
0.227,0.102,0.963,-0.854,8.606,-8.911
0.225,0.105,0.964,-1.221,8.545,-9.521

0.179,0.104,1.137,-80.994,15.930,31.006
0.066,0.040,1.011,-4.150,-11.108,3.479
-0.018,0.072,0.987,-7.568,1.526,12.939
-0.018,0.089,0.989,-6.531,-5.798,20.752
-0.017,0.054,0.991,-11.414,-3.845,29.480
-0.055,0.017,0.977,-9.338,-5.249,36.926
0.084,0.090,0.990,-3.418,-7.935,40.100
0.086,-0.126,0.911,14.282,-19.775,31.006
0.040,-0.053,1.005,3.174,-7.935,16.663
-0.026,0.008,0.987,-7.324,-0.244,6.775
-0.042,0.019,0.976,-4.028,-3.906,5.005
-0.023,0.051,0.986,-12.329,-1.160,10.254
-0.022,0.030,0.969,-11.292,-2.136,15.808
-0.006,0.044,0.971,-6.836,-3.723,14.404
0.000,0.052,0.963,-6.836,-3.540,12.268
0.016,0.067,0.969,-4.761,-2.808,8.850
0.002,0.063,0.966,-2.808,-1.770,7.080
-0.001,0.043,0.975,-1.099,-0.610,8.484
-0.032,0.046,0.966,-1.404,0.244,8.850
-0.009,0.035,0.986,-0.854,0.305,8.240
-0.036,0.030,0.967,-1.709,0.854,7.690
-0.006,0.044,0.981,-0.366,-0.122,4.639
-0.014,0.042,0.969,-0.977,0.183,4.028
-0.013,0.047,0.974,0.183,0.244,4.089
-0.020,0.035,0.969,-0.305,0.793,4.150
-0.018,0.038,0.979,-0.366,0.854,3.052
-0.015,0.038,0.982,-2.991,1.831,2.747
-0.003,0.034,0.981,-4.028,2.014,2.136
-0.012,0.063,0.955,-5.188,2.197,1.892
-0.013,0.061,0.959,-1.648,1.038,2.319
-0.021,0.041,0.985,0.732,0.610,2.625
-0.011,0.047,0.969,0.977,-0.061,2.441
-0.005,0.058,0.965,0.732,0.244,1.953
-0.019,0.035,0.985,3.418,-0.366,1.953
-0.026,0.014,1.000,0.427,0.366,2.563
-0.024,0.007,0.994,-5.737,2.502,3.967
-0.020,0.031,0.988,-11.658,4.761,5.188
-0.008,0.078,0.975,-14.343,5.981,4.272
0.002,0.089,0.954,-14.160,5.737,1.709
-0.004,0.073,0.958,-9.521,4.395,1.160
-0.013,0.060,0.971,-4.395,2.747,1.404
-0.008,0.054,0.989,-2.930,2.197,1.709
-0.014,0.063,0.965,-4.517,2.930,1.831
-0.007,0.057,0.979,-2.808,1.465,1.343
-0.021,0.063,0.972,-3.784,2.441,1.465
-0.007,0.072,0.966,-4.089,2.380,2.014
-0.003,0.063,0.975,-1.709,1.587,2.197
-0.019,0.052,0.978,-1.770,2.014,2.502
-0.008,0.056,0.993,-4.395,3.052,1.648
-0.011,0.060,0.977,-6.653,3.723,1.160
-0.005,0.075,0.963,-7.935,4.211,1.038
-0.001,0.083,0.962,-5.737,3.296,1.160
-0.005,0.076,0.962,-2.075,1.343,1.831
-0.005,0.070,0.970,0.671,0.549,2.991
-0.007,0.068,0.974,1.831,0.427,2.075
-0.007,0.069,0.972,1.831,0.427,1.404
-0.002,0.070,0.973,2.808,-0.305,1.221
-0.007,0.065,0.982,2.991,0.000,1.160
-0.009,0.064,0.979,1.282,0.793,1.038
-0.008,0.063,0.985,0.183,1.160,0.793
-0.008,0.061,0.986,-1.709,1.526,1.099
-0.010,0.063,0.979,-3.906,2.380,1.404
-0.005,0.064,0.983,-5.981,3.418,1.404
-0.009,0.070,0.974,-7.446,4.089,2.075
-0.001,0.078,0.972,-7.751,3.967,2.563
-0.002,0.078,0.970,-6.287,3.296,2.686
-0.005,0.078,0.965,-5.005,2.686,2.502
-0.002,0.085,0.962,-3.723,2.380,2.319
-0.000,0.089,0.963,-1.648,1.465,2.075
-0.005,0.080,0.967,0.671,0.549,1.892
-0.006,0.068,0.977,2.075,-0.061,1.648
-0.011,0.057,0.980,2.380,-0.122,2.502
-0.007,0.059,0.985,1.160,0.610,2.991
-0.006,0.061,0.982,-0.916,1.526,2.930
-0.007,0.056,0.974,-3.174,2.258,2.747
-0.005,0.071,0.971,-3.784,2.625,3.540
-0.000,0.062,0.965,-3.174,2.197,3.601
-0.003,0.065,0.966,-1.526,1.770,4.883
0.001,0.132,0.986,-0.061,1.526,4.883
-0.003,0.063,0.958,-1.831,2.014,3.052
-0.001,0.070,0.960,-0.061,0.366,4.883
0.002,0.085,0.978,1.953,0.427,3.296
-0.007,0.070,0.971,1.831,0.244,3.906
-0.006,0.077,0.972,2.014,0.000,3.967
-0.004,0.083,0.981,1.587,0.732,3.967
-0.001,0.094,0.987,-0.061,1.587,3.723
-0.001,0.117,0.978,-2.319,1.892,2.747
0.000,0.089,0.958,-3.845,2.380,1.282
-0.001,0.076,0.950,-2.136,1.404,1.343
-0.003,0.067,0.964,1.831,0.183,1.831
-0.009,0.054,0.974,4.333,-0.427,3.235
0.000,0.098,1.000,4.211,-0.305,3.845
-0.006,0.086,0.987,-0.183,1.465,2.563
-0.002,0.072,0.968,-3.357,2.136,2.686
-0.003,0.084,0.957,-2.502,1.709,2.625
0.000,0.067,0.958,-0.305,1.099,2.808
-0.006,0.100,0.969,2.930,-0.061,4.333
0.001,0.099,0.991,3.357,0.366,3.296
-0.009,0.080,0.974,1.038,1.038,3.601
-0.004,0.064,0.968,-0.122,1.038,2.991
-0.003,0.089,0.971,0.244,0.854,3.235
0.000,0.097,0.973,0.427,0.916,2.563
0.000,0.085,0.971,0.061,1.404,2.869
-0.005,0.073,0.963,0.732,0.793,2.991
-0.002,0.114,0.985,1.892,0.427,3.113
0.002,0.101,0.978,0.183,1.160,1.404
-0.005,0.085,0.961,-1.404,1.587,0.977
0.000,0.087,0.966,-0.061,0.732,0.305
-0.001,0.085,0.967,1.465,0.305,0.916
-0.002,0.077,0.973,2.502,-0.122,0.732
-0.005,0.077,0.976,2.502,-0.061,1.099
-0.005,0.069,0.979,1.465,0.366,1.099
-0.007,0.071,0.976,0.488,0.671,1.709
-0.004,0.065,0.972,0.000,0.793,1.831
0.001,0.107,0.985,-0.122,1.282,2.319
-0.000,0.096,0.969,-1.587,1.770,1.160
-0.003,0.088,0.959,-1.587,1.770,1.221
-0.002,0.083,0.964,1.038,0.671,0.916
-0.001,0.080,0.978,2.808,-0.061,1.465